;*************************
;604888-1-1 Gantry Current Calibration File
;*************************
:START 2 POSUNIT=PRIMARY CORUNIT=PRIMARY/1000 SAMPLEDIST=50.000
:START HOMEOFFSET=-13.957851
0.000	11.160	16.306	17.467	21.243	24.406
20.183	19.605	20.407	22.239	26.267	32.433
33.331	32.082	29.486	24.919	20.168	16.707
14.320	11.083	7.050	5.666	7.725	-0.342
-5.336	-1.034	0.000	
:END

;***************************************************************************
;***************         HP laser header information          **************
; Rotary Calibrator: 	Linear Error Plot
; Filename: 	C:\Linear Calibrator\604888-1-1-Z - 02.6.2019\Accuracy\604888-1-1-Z_CalData.dat
; Acquisition Date: 	February 6, 2019 14:31:41 EST
; Current Date: 	Feb.06,2019 14:41:43
; Measurement Type: 	Linear
; Travel Mode: 	Unidirectional
; Number of Target Positions: 	101
; Number of total data pairs: 	101
; Number of total data runs: 	1
; Expansion Coefficient: 	11.7 PPM/°C
; Position Value Units: 	millimeters
; Error Value Units: 	micrometers
; 
; 
; environmental data - 	MIN	MAX	AVG
; Air Temp (C)	21.47	21.54	21.51
; Air Prs (mm)	731.75	731.90	731.84
; Air Hmd (%)	51.63	52.40	52.22
; MT1 Temp (C)	21.25	21.33	21.31
; 
;***************************************************************************
:START 3 SAMPLEDIST=-1.000000 POSUNIT=PRIMARY CORUNIT=PRIMARY/1000.000
:START EXPANDCOEFF=1.170000e-005 MATERIALTEMP=20.00
:START HOMEDIRECTION=CW HOMEOFFSET=1.276666 FULLTRAVEL=100.000000
     0.000000    -0.667000    -0.366000    -0.706000    -0.373000    -0.757000
    -0.649000    -0.823000    -0.550000    -0.752000    -0.729000    -0.941000
    -0.695000    -1.315000    -0.962000    -1.430000    -1.303000    -1.915000
    -1.429000    -1.799000    -1.365000    -2.064000    -1.607000    -2.103000
    -1.784000    -2.608000    -2.046000    -2.684000    -2.296000    -2.852000
    -2.277000    -2.940000    -2.602000    -3.000000    -2.425000    -3.198000
    -2.875000    -3.441000    -3.002000    -3.451000    -3.099000    -3.836000
    -3.281000    -3.814000    -3.375000    -3.864000    -3.621000    -4.089000
    -3.698000    -4.275000    -3.795000    -4.658000    -3.775000    -4.399000
    -3.885000    -4.397000    -3.860000    -4.382000    -3.699000    -4.374000
    -3.765000    -4.297000    -3.792000    -4.254000    -3.685000    -4.321000
    -3.729000    -4.096000    -3.428000    -4.058000    -3.518000    -3.902000
    -3.169000    -3.952000    -3.440000    -3.956000    -3.281000    -3.859000
    -3.250000    -3.583000    -3.117000    -3.671000    -2.864000    -3.546000
    -3.207000    -3.655000    -2.927000    -3.646000    -3.174000    -3.718000
    -2.953000    -3.471000    -3.002000    -3.443000    -3.041000    -3.507000
    -2.917000    -3.399000    -3.092000    -3.549000    -3.069000     0.000000
:END

;***************************************************************************
;***************         HP laser header information          **************
; Rotary Calibrator: 	Linear Error Plot
; Filename: 	C:\Linear Calibrator\604888-1-1-X - 02.6.2019\Accuracy\604888-1-1-X_CalData.dat
; Acquisition Date: 	February 6, 2019 13:45:17 EST
; Current Date: 	Feb.06,2019 14:10:57
; Measurement Type: 	Linear
; Travel Mode: 	Unidirectional
; Number of Target Positions: 	251
; Number of total data pairs: 	251
; Number of total data runs: 	1
; Expansion Coefficient: 	7.5 PPM/°C
; Position Value Units: 	millimeters
; Error Value Units: 	micrometers
; 
; 
; environmental data - 	MIN	MAX	AVG
; Air Temp (C)	20.93	21.58	21.16
; Air Prs (mm)	731.78	732.06	731.93
; Air Hmd (%)	47.22	52.98	49.00
; MT1 Temp (C)	20.84	21.40	21.07
; 
;***************************************************************************
:START 4 SAMPLEDIST=-5.000000 POSUNIT=PRIMARY CORUNIT=PRIMARY/1000.000
:START EXPANDCOEFF=7.500000e-006 MATERIALTEMP=20.00
:START HOMEDIRECTION=CW HOMEOFFSET=18.648500
     0.000000     0.044000     0.051000     0.309000     0.677000     1.116000
     1.472000     1.995000     2.859000     3.158000     3.254000     3.315000
     3.352000     3.579000     3.872000     4.195000     4.747000     4.973000
     5.642000     6.250000     7.041000     7.272000     7.351000     7.056000
     6.796000     6.599000     6.150000     5.459000     5.007000     4.499000
     4.126000     3.785000     3.407000     3.154000     3.037000     2.761000
     2.552000     2.652000     2.424000     2.367000     2.723000     3.112000
     3.203000     2.775000     2.461000     1.590000     0.389000    -0.668000
    -1.772000    -2.888000    -4.111000    -5.741000    -6.721000    -7.425000
    -7.748000    -7.302000    -6.446000    -5.416000    -4.509000    -4.114000
    -3.463000    -2.844000    -2.219000    -1.721000    -0.768000    -0.303000
     0.496000     1.183000     1.508000     2.042000     2.228000     1.836000
     1.257000     1.054000     0.657000     0.019000    -0.296000    -0.393000
    -0.644000    -0.963000    -1.080000    -1.368000    -1.675000    -1.902000
    -1.856000    -1.274000    -1.040000    -0.446000     0.361000     1.514000
     2.877000     3.802000     5.348000     6.101000     6.492000     6.033000
     5.233000     4.441000     3.534000     2.085000     1.189000     0.405000
    -0.159000    -0.402000    -0.129000    -0.006000     0.175000     0.159000
    -0.129000     0.433000     0.812000     1.373000     2.749000     4.074000
     5.839000     7.330000     8.992000    10.509000    12.167000    13.604000
    14.161000    14.815000    14.903000    15.017000    15.177000    14.898000
    14.809000    14.996000    15.224000    15.005000    15.053000    15.039000
    14.824000    15.062000    15.278000    15.677000    16.433000    16.942000
    17.587000    18.592000    19.287000    20.104000    20.690000    20.984000
    21.233000    21.782000    21.738000    21.869000    21.776000    21.622000
    21.461000    21.159000    20.735000    20.171000    19.907000    19.439000
    19.214000    19.511000    19.626000    20.278000    20.870000    21.714000
    22.668000    23.583000    24.814000    25.632000    25.782000    26.175000
    26.014000    25.879000    25.293000    24.576000    24.059000    23.492000
    22.855000    22.260000    22.354000    22.056000    21.750000    21.481000
    21.011000    20.897000    20.758000    20.632000    21.350000    21.416000
    22.038000    22.688000    23.547000    23.949000    24.319000    24.652000
    24.657000    25.083000    25.059000    24.888000    24.918000    24.316000
    23.705000    22.934000    22.563000    22.342000    22.083000    21.578000
    21.337000    21.074000    20.981000    20.481000    20.156000    19.816000
    19.938000    20.136000    20.759000    21.159000    21.647000    21.936000
    22.310000    22.831000    23.090000    23.095000    23.480000    23.514000
    23.724000    23.624000    24.274000    23.963000    24.064000    24.110000
    24.208000    24.571000    24.490000    24.232000    24.671000    25.124000
    25.645000    26.200000    26.603000    26.766000    26.393000    25.599000
    25.262000    25.031000    24.185000    23.557000    23.249000    22.706000
    22.426000    22.273000    22.265000    22.159000    22.089000     0.000000
:END

;***************************************************************************
;***************          Aerotech Axis Calibration           **************
;Axis System Serial Number: 604888-1-1-U
;Axis Stage Serial Number: 147900-01
;Date Tested: February 8, 2019 06:54:48 EST
;Optic Location: Per ADS
;Payload: Per ADS
;Average Air Temperature (°C): 20.80
;CountsPerUnit Parameter: 555555.555556
;***************************************************************************
:START 5 SAMPLEDIST=-10 POSUNIT=PRIMARY CORUNIT=PRIMARY/3600
:START ROLLOVER=200000000
:START HOMEDIRECTION=CW HOMEOFFSET=1.326
:START SERIALNUMBER="604888-1-1"
0.000000	1.583000	3.292000	8.117000	9.672000	11.171000
8.449000	12.281000	14.896000	16.469000	8.937000	9.974000
7.383000	1.895000	0.116000	-0.623000	-1.509000	-4.998000
-3.467000	-12.002000	-11.745000	-16.305000	-19.771000	-19.511000
-20.884000	-22.801000	-23.546000	-18.577000	-16.568000	-13.099000
-7.586000	-4.183000	-5.369000	-3.271000	-2.376000	0.854000
0.000000	
:END

